timestamp,ax,ay,az
0,0.7561,-0.09351,0.08545
2,0.73828,-0.08545,0.08398
4,0.72974,-0.09155,0.07886
6,0.70801,-0.09448,0.07129
8,0.69922,-0.10303,0.07446
10,0.69165,-0.11353,0.07861
12,0.68018,-0.1377,0.07715
14,0.67505,-0.14819,0.07056
25,0.67041,-0.13208,0.05322
27,0.68823,-0.12842,0.04224
29,0.68872,-0.13428,0.0437
31,0.7063,-0.14087,0.04224
33,0.71118,-0.14502,0.02197
35,0.71313,-0.16699,0.0127
37,0.72388,-0.18823,0.02197
39,0.71973,-0.22241,0.0249
41,0.71411,-0.22754,0.03149
43,0.72559,-0.22632,0.04297
45,0.73853,-0.22144,0.07397
47,0.76758,-0.2063,0.07715
58,1.06934,-0.13525,0.12451
60,1.21655,-0.11914,0.09961
62,1.48022,-0.09888,0.09814
64,1.99994,-0.0769,0.1123
66,1.99994,0.07788,0.28784
68,1.99994,0.61401,1.54785
70,1.99994,0.14331,0.479
72,1.51392,-0.354,-0.20044
74,1.48682,0.0686,-0.02979
76,1.50562,0.07813,0.2207
78,1.06885,-0.06494,0.47021
80,0.81372,0.07007,0.49829
91,0.26294,0.2688,-0.10571
93,-0.02759,0.33936,-0.04443
95,-0.28979,0.38916,-0.00439
97,-0.55322,0.44849,0.05664
99,-0.74585,0.50244,0.05542
101,-0.86499,0.53979,-0.04004
103,-0.91846,0.54004,-0.12744
105,-0.92798,0.46362,-0.25977
107,-0.86743,0.33716,-0.31689
109,-0.74878,0.24927,-0.31641
111,-0.48608,0.18579,-0.27051
122,-1.46289,0.45312,0.28442
124,0.09058,0.23682,0.50195
126,1.86377,0.05005,-0.28589
128,1.99994,0.09912,-0.56494
130,1.49097,0.06738,-0.08911
132,0.78857,0.03442,0.09155
134,0.97192,-0.05615,0.36304
136,1.28394,-0.0542,0.4375
138,1.18188,0.01416,0.24316
140,0.98267,0.03247,0.09814
142,0.88135,0.00391,-0.01538
144,0.91577,-0.04102,0.05176
146,0.95435,-0.06934,0.17334
157,0.93726,-0.08936,0.17822
159,0.89868,-0.10254,0.18921
161,0.89966,-0.10596,0.125
163,0.85962,-0.10205,0.07129
165,0.85181,-0.1001,0.04541
167,0.84546,-0.10498,0.06006
169,0.82764,-0.10522,0.08618
171,0.82886,-0.11499,0.13892
173,0.80518,-0.11572,0.15698
175,0.7981,-0.11621,0.14355
177,0.7854,-0.11719,0.12964
179,0.78442,-0.11938,0.09229
190,0.771,-0.1499,0.06323
192,0.76587,-0.15234,0.06543
194,0.75317,-0.15137,0.07593
196,0.73535,-0.1543,0.06836
198,0.72827,-0.15137,0.05835
200,0.73218,-0.14575,0.05591
202,0.72412,-0.146,0.04248
204,0.72241,-0.15137,0.03564
206,0.72437,-0.15112,0.02954
208,0.7168,-0.14624,0.02881
210,0.70923,-0.14795,0.03296
221,0.65967,-0.16357,0.05225
223,0.65503,-0.16528,0.05493
225,0.66553,-0.17041,0.06519
227,0.67969,-0.17383,0.05347
229,0.69116,-0.17358,0.0625
231,0.69263,-0.16992,0.07813
233,0.70361,-0.17456,0.07666
235,0.72144,-0.16919,0.07544
237,0.73779,-0.17065,0.08569
239,0.7583,-0.16162,0.09424
241,0.78174,-0.16089,0.09375
243,0.80518,-0.15649,0.10815
254,1.38989,-0.11499,0.07153
256,1.95679,-0.11597,0.04565
258,1.99994,0.00562,0.12842
260,1.99994,0.83325,0.60449
262,1.99994,0.43213,0.72461
264,1.46045,-0.54932,0.65967
266,1.69995,-0.01001,0.05786
268,1.86548,0.10181,-0.02051
270,1.17383,-0.10791,0.52368
272,0.82886,0.02783,0.55786
274,0.87744,0.23682,0.09668
276,0.95288,0.1936,-0.21167
278,0.92529,0.18066,-0.28857
289,-0.75024,0.46069,-0.02173
291,-0.94653,0.52954,-0.08545
293,-1.11255,0.55615,-0.16675
295,-1.18311,0.53125,-0.2644
297,-1.20093,0.48047,-0.34351
299,-1.15894,0.40015,-0.39746
301,-1.04224,0.34302,-0.38745
303,-0.78125,0.27295,-0.35278
305,-0.07837,0.19214,-0.31934
307,1.99994,-0.14233,-0.64941
318,1.99994,0.02954,-0.82666
320,1.27173,0.29175,-1.22192
322,0.78711,0.28442,-0.86499
324,1.00879,0.08911,-0.06445
326,1.39722,-0.10034,0.50928
328,1.39624,-0.11353,0.81323
330,1.03296,-0.0874,0.60303
332,0.854,-0.05054,0.20923
334,0.84619,-0.02051,-0.11255
336,0.85303,-0.00146,-0.1311
338,0.87744,-0.01172,-0.00073
340,0.90088,-0.04517,0.12085
351,0.85278,-0.11157,0.18384
353,0.87305,-0.10229,0.0835
355,0.83398,-0.09619,0.04272
357,0.82129,-0.09863,0.03638
359,0.81909,-0.09033,0.05103
361,0.80054,-0.10059,0.08667
363,0.81055,-0.11426,0.10254
365,0.79468,-0.12134,0.12378
367,0.78809,-0.12524,0.13013
369,0.77881,-0.13354,0.1377
371,0.78198,-0.13501,0.09399
373,0.75806,-0.13501,0.09131
384,0.75,-0.13379,0.05884
386,0.73999,-0.13086,0.052
388,0.74072,-0.12378,0.05518
390,0.72998,-0.12622,0.04272
392,0.72241,-0.1333,0.02563
394,0.71802,-0.13013,0.01538
396,0.71802,-0.13379,0.0061
398,0.72778,-0.13818,0.01099
400,0.71851,-0.14404,0.01855
402,0.71484,-0.13647,0.01465
404,0.71045,-0.14063,0.01099
406,0.70752,-0.1416,0.01587
417,0.78564,-0.16772,0.052
419,0.80005,-0.16431,0.06494
421,0.82056,-0.15283,0.07861
423,0.83276,-0.13159,0.08398
425,0.8584,-0.11475,0.08398
427,0.88525,-0.1084,0.08032
429,0.91504,-0.09473,0.09888
431,0.98877,-0.09497,0.06543
433,1.07739,-0.09766,0.06836
435,1.24512,-0.09595,0.0647
437,1.53247,-0.08813,0.03003
448,1.51172,-0.21118,1.29028
450,1.99994,0.00195,-0.58252
452,1.38281,-0.0564,0.12915
454,1.02954,-0.02612,0.57544
456,1.10864,0.12061,0.31592
458,1.14453,0.12476,0.05933
460,1.0791,0.12183,-0.02197
462,0.9165,0.1853,-0.03906
464,0.60107,0.21948,-0.02588
466,0.24023,0.28857,-0.00732
468,-0.08936,0.36841,0.02686
470,-0.40259,0.4563,0.06152
481,-0.84326,0.43091,-0.27148
483,-0.70264,0.31836,-0.33643
485,-0.42505,0.21387,-0.37109
487,0.24072,0.11523,-0.41162
489,1.99994,-0.19507,-1.04932
491,1.99994,-1.6062,-2.0
493,1.99994,-0.98608,1.99994
495,-0.21802,0.15698,1.99994
497,0.47705,0.21704,0.70972
499,1.73096,-0.0769,-0.8645
501,1.1582,0.13013,-0.82666
503,0.67603,0.35181,-0.72754
514,1.28735,-0.10181,0.71655
516,1.13721,-0.06104,0.51392
518,0.97803,-0.02539,0.21655
520,0.87891,-0.01025,0.0
522,0.84082,-0.00977,-0.14111
524,0.81714,-0.03613,-0.15552
526,0.83447,-0.08179,-0.10547
528,0.86963,-0.10742,-0.00732
530,0.90723,-0.1355,0.03369
532,0.91357,-0.12866,0.09985
534,0.9292,-0.1167,0.10205
545,0.79956,-0.09277,-0.01685
547,0.79028,-0.09937,0.02539
549,0.81128,-0.10303,0.07007
551,0.82129,-0.11865,0.13354
553,0.83765,-0.1189,0.15112
555,0.8396,-0.12134,0.13623
557,0.82202,-0.10815,0.12231
559,0.80688,-0.10327,0.09814
561,0.79175,-0.10986,0.07959
563,0.78345,-0.11279,0.06421
565,0.77002,-0.11719,0.06543
567,0.76001,-0.13281,0.06982
578,0.74512,-0.12231,0.01392
580,0.74414,-0.12549,-0.00366
582,0.74536,-0.13184,-0.02075
584,0.73682,-0.13892,-0.03638
586,0.72632,-0.14063,-0.0332
588,0.72437,-0.14746,-0.02441
590,0.72437,-0.15918,-0.02686
592,0.73853,-0.15161,-0.02344
594,0.74146,-0.1394,-0.00171
596,0.75903,-0.15552,-0.01196
598,0.77466,-0.16357,-0.00391
609,0.85132,-0.13403,0.05347
611,0.87866,-0.11938,0.05249
613,0.89941,-0.11304,0.05054
615,0.9458,-0.09888,0.04883
617,1.02954,-0.09204,0.03247
619,1.15332,-0.08423,0.02026
621,1.33398,-0.06738,-0.00635
623,1.64868,-0.04541,-0.09937
625,1.99994,0.03516,-0.43652
627,1.99994,0.34863,-1.83521
629,1.99994,0.59106,-1.35181
640,1.28979,0.02222,0.28223
642,1.22876,0.0918,0.29858
644,1.15771,0.11401,0.21143
646,1.04224,0.10083,0.09082
648,0.85156,0.13794,-0.02612
650,0.58911,0.18799,-0.13037
652,0.26489,0.25586,-0.06592
654,-0.06396,0.31152,-0.00513
656,-0.31128,0.37012,-0.00098
658,-0.50366,0.45508,0.01709
660,-0.62061,0.48657,0.00146
662,-0.66113,0.48999,-0.02808
673,1.99994,-0.93652,-1.69263
675,1.99994,-0.47681,1.99994
677,0.70972,0.04346,1.99994
679,1.27832,-0.04321,1.2522
681,1.58984,-0.16455,-0.34644
683,1.03784,0.10083,-0.75806
685,0.66064,0.31787,-0.84912
687,0.51929,0.29663,-0.85107
689,0.65283,0.15039,-0.62622
691,0.96313,0.01855,-0.3728
693,1.25171,-0.0918,0.05762
695,1.33716,-0.14209,0.46484
706,0.85693,-0.04834,-0.1604
708,0.81372,-0.05518,-0.18335
710,0.80273,-0.07959,-0.1355
712,0.83301,-0.0979,-0.05273
714,0.86694,-0.1084,0.02856
716,0.90674,-0.10864,0.12134
718,0.91406,-0.10864,0.18066
720,0.91162,-0.10645,0.17529
722,0.87793,-0.10522,0.12671
724,0.82202,-0.11597,0.08667
726,0.78906,-0.10742,0.04102
737,0.79248,-0.13062,0.11084
739,0.79517,-0.12695,0.11987
741,0.78418,-0.1228,0.10864
743,0.77808,-0.11523,0.08838
745,0.75684,-0.10474,0.04883
747,0.74756,-0.10669,0.03345
749,0.74023,-0.11133,0.01904
751,0.73364,-0.11572,0.01123
753,0.72705,-0.12402,0.0
755,0.72363,-0.12842,0.00952
757,0.72729,-0.12769,0.00244
759,0.72876,-0.1333,0.01147
770,0.71436,-0.14307,-0.00171
772,0.72388,-0.14331,-0.00659
774,0.74438,-0.14111,0.00122
776,0.75513,-0.13525,0.01123
778,0.78003,-0.13208,0.02637
780,0.81104,-0.12891,0.03418
782,0.83325,-0.10815,0.04712
784,0.8584,-0.10693,0.05396
786,0.88403,-0.09937,0.07251
788,0.93872,-0.10205,0.07422
790,1.02368,-0.10718,0.08472
792,1.15698,-0.10132,0.03711
803,1.41357,0.28809,1.99994
805,1.51416,-0.1626,1.99994
807,1.99994,-0.17969,0.33325
809,1.99994,-0.19702,-0.36182
811,1.6521,-0.11133,0.43896
813,1.55396,-0.06177,0.65771
815,1.50439,-0.03589,0.49634
817,1.40674,0.01318,0.19556
819,1.25708,0.06836,-0.00171
821,0.97681,0.12891,-0.05176
823,0.69165,0.1853,-0.08813
825,0.34131,0.2627,0.0166
836,-0.85034,0.60522,0.06689
838,-0.89185,0.58789,-0.04126
840,-0.85034,0.55176,-0.15356
842,-0.8313,0.48877,-0.25854
844,-0.76343,0.375,-0.33936
846,-0.68188,0.2229,-0.37598
848,-0.54346,0.09985,-0.40625
850,-0.26929,0.04517,-0.44116
852,0.41895,0.03101,-0.55103
854,1.99994,-0.23975,-1.51147
856,1.99994,-1.52832,-2.0
867,0.96802,0.26978,-0.90942
869,0.59521,0.36108,-1.09717
871,0.48975,0.21777,-0.92603
873,0.75879,0.0564,-0.41309
875,1.2019,-0.06152,0.14111
877,1.49707,-0.14551,0.61377
879,1.42187,-0.14893,0.91089
881,1.12671,-0.12085,0.87134
883,0.9436,-0.0708,0.49561
885,0.88037,-0.04346,0.15332
887,0.85156,-0.0188,-0.09253
898,0.91528,-0.125,0.16113
900,0.90527,-0.11377,0.21777
902,0.8728,-0.10181,0.17676
904,0.85547,-0.07935,0.12671
906,0.81909,-0.0708,0.07251
908,0.77344,-0.0625,0.02051
910,0.75342,-0.06665,0.02563
912,0.74829,-0.08228,0.04419
914,0.76416,-0.11084,0.08374
916,0.7749,-0.11914,0.11572
918,0.79663,-0.11865,0.13916
920,0.79102,-0.1167,0.14185
931,0.71655,-0.10034,0.08057
933,0.70752,-0.10132,0.06934
935,0.70361,-0.10083,0.07495
937,0.7019,-0.10083,0.05737
939,0.69141,-0.10669,0.06201
941,0.67993,-0.11157,0.05469
943,0.67505,-0.1145,0.03052
945,0.67603,-0.12573,0.02661
947,0.6731,-0.11377,0.0459
949,0.64697,-0.07788,0.06421
951,0.64771,-0.11792,0.05664
953,0.67358,-0.17358,0.01782
964,0.729,-0.19971,0.06372
966,0.75562,-0.18213,0.05981
968,0.76562,-0.17651,0.0603
970,0.78931,-0.16797,0.0769
972,0.81689,-0.17236,0.05908
974,0.86084,-0.17236,0.05396
976,0.93018,-0.1709,0.05469
978,1.04321,-0.1665,0.05103
980,1.26123,-0.18091,0.00342
982,1.63623,-0.17651,-0.07666
984,1.99994,-0.1167,-0.35864
986,1.99994,0.22339,-1.73877
997,1.99994,-0.2417,0.52246
999,1.62109,-0.17896,0.99634
1001,1.50977,-0.11279,0.49463
1003,1.49854,-0.0686,0.021
1005,1.42554,0.01538,-0.09253
1007,1.21216,0.06348,0.03882
1009,0.86157,0.08301,0.16357
1011,0.53149,0.1687,0.1897
1013,0.20679,0.25391,0.14502
1015,-0.10693,0.33716,0.04785
1017,-0.37378,0.41187,0.00342
1019,-0.60522,0.49561,0.02588
1030,-0.88794,0.53784,-0.16211
1032,-0.88525,0.42871,-0.14673
1034,-0.84521,0.30103,-0.19238
1036,-0.8064,0.18262,-0.2395
1038,-0.76489,0.1333,-0.26025
1040,-0.72095,0.13745,-0.23877
1042,-0.62817,0.15698,-0.27588
1044,-0.5105,0.18066,-0.26465
1046,-0.36084,0.17407,-0.24585
1048,-0.12549,0.14941,-0.24658
1050,0.25952,0.12402,-0.26953
1061,-1.12622,0.10425,0.68823
1063,0.39551,-0.12573,-0.79639
1065,1.61279,0.01636,-0.67212
1067,1.22241,0.33374,-0.45459
1069,0.70972,0.32227,-0.4895
1071,0.39722,0.18848,-0.51123
1073,0.6084,0.07349,-0.34155
1075,1.03198,-0.02368,-0.13403
1077,1.25928,-0.10376,0.34912
1079,1.23218,-0.14136,0.67407
1081,1.04443,-0.12964,0.72827
1092,0.81738,-0.04175,-0.08862
1094,0.8208,-0.07227,-0.09375
1096,0.79004,-0.08545,-0.03369
1098,0.82422,-0.08813,-0.00684
1100,0.8125,-0.08521,0.05591
1102,0.80469,-0.07153,0.14063
1104,0.85498,-0.07104,0.13647
1106,0.82251,-0.0498,0.13818
1108,0.80225,-0.04028,0.10156
1110,0.76465,-0.02588,0.07617
1112,0.75366,-0.04126,0.03223
1114,0.76904,-0.06323,0.00122
1125,0.83911,-0.09937,0.06641
1127,0.83838,-0.07422,0.06934
1129,0.82764,-0.07153,0.05737
1131,0.82812,-0.07764,0.04443
1133,0.82007,-0.0874,0.05347
1135,0.81665,-0.08862,0.04248
1137,0.82471,-0.08643,0.04297
1139,0.82153,-0.08936,0.03442
1141,0.84106,-0.09497,0.03271
1143,0.86597,-0.10645,0.02905
1145,0.90723,-0.11108,0.03564
1156,1.8457,-0.06689,-0.23584
1158,1.99994,0.01709,-0.57886
1160,1.99994,0.20508,-0.73315
1162,1.99994,0.24121,0.84521
1164,1.38623,-0.05933,1.56226
1166,1.40796,-0.17798,0.86597
1168,1.60815,-0.05591,-0.01001
1170,1.427,-0.01196,0.03394
1172,1.20996,-0.03052,0.24902
1174,1.11255,0.01782,0.27417
1176,1.0498,0.06787,0.25
1178,1.01343,0.09985,0.06909
1189,0.02075,0.29736,0.06714
1191,-0.10571,0.33228,0.04883
1193,-0.20068,0.3606,0.02954
1195,-0.27246,0.38184,0.01465
1197,-0.29687,0.38843,-0.01733
1199,-0.29028,0.36279,-0.05078
1201,-0.25928,0.31055,-0.0918
1203,-0.18433,0.25342,-0.11328
1205,-0.07373,0.18701,-0.1189
1207,0.16846,0.12842,-0.15649
1209,0.75659,0.06079,-0.23022
1211,1.99994,-0.15771,-0.49609
1222,1.35547,-0.09302,-0.31641
1224,1.22485,0.03711,-0.67187
1226,0.87256,0.17798,-0.64478
1228,0.74438,0.17749,-0.45728
1230,0.78491,0.10938,-0.30518
1232,0.96045,0.03955,-0.10425
1234,1.1228,-0.01196,0.03491
1236,1.22217,-0.05811,0.20142
1238,1.1687,-0.08691,0.33545
1240,1.06201,-0.07617,0.32886
1242,0.99072,-0.05054,0.26147
1253,0.81006,-0.05981,-0.05127
1255,0.81763,-0.0752,-0.0188
1257,0.85425,-0.08228,0.04736
1259,0.87207,-0.0874,0.1084
1261,0.88818,-0.07129,0.13647
1263,0.88721,-0.06592,0.14673
1265,0.86646,-0.05518,0.12842
1267,0.84448,-0.05176,0.09155
1269,0.82788,-0.05347,0.06323
1271,0.823,-0.05664,0.04346
1273,0.83276,-0.0752,0.0498
1275,0.82471,-0.08398,0.04468
1286,0.82471,-0.0979,0.07764
1288,0.81909,-0.08618,0.07349
1290,0.82324,-0.08667,0.06299
1292,0.81494,-0.09546,0.03491
1294,0.81836,-0.10474,0.01831
1296,0.82715,-0.10791,0.02173
1298,0.83252,-0.10962,0.02319
1300,0.83716,-0.11084,0.02515
1302,0.84961,-0.10815,0.01636
1304,0.86914,-0.1001,0.00415
1306,0.89771,-0.0957,-0.00293
1308,0.92554,-0.09009,-0.00903
1319,1.77319,0.01587,-0.29687
1321,1.99994,0.14624,-0.77295
1323,1.979,0.28369,-0.71851
1325,1.12231,0.24097,0.61475
1327,1.11133,0.07471,1.16016
1329,1.44629,-0.01172,1.02075
1331,1.52612,-0.04785,0.76855
1333,1.53687,-0.08472,0.32104
1335,1.51392,-0.08154,0.09351
1337,1.41797,-0.04321,0.14063
1339,1.32397,-0.01172,0.24023
1341,1.26367,0.02783,0.25513
1352,0.64258,0.15186,0.05322
1354,0.49121,0.1897,0.06958
1356,0.34863,0.23511,0.08594
1358,0.20752,0.28345,0.10669
1360,0.14014,0.31665,0.05591
1362,0.08496,0.33643,0.03979
1364,0.00342,0.33008,0.00854
1366,0.02881,0.33618,-0.11597
1368,0.02295,0.30518,-0.11816
1370,0.08008,0.26709,-0.18579
1372,0.15161,0.22656,-0.18311
1383,1.99994,-0.62866,-0.09155
1385,1.99994,-0.74097,0.87573
