timestamp,ax,ay,az
0,0.3689,0.04932,-0.02173
2,0.34985,0.0437,0.02563
4,0.33472,0.02246,0.05566
6,0.34253,0.02563,0.08521
8,0.36401,0.03394,0.09985
10,0.35669,0.05737,0.07202
12,0.37524,0.10327,0.02344
14,0.39087,0.16382,-0.08008
25,0.271,0.3811,-0.04517
27,0.22705,0.38184,0.01245
29,0.19946,0.36963,0.073
31,0.16382,0.35181,0.08984
33,0.13599,0.33472,0.11377
35,0.09546,0.31299,0.10449
37,0.08521,0.29346,0.10083
39,0.05591,0.28394,0.12329
41,0.03271,0.25537,0.13232
43,0.02905,0.23193,0.13916
45,0.02856,0.1958,0.16113
47,0.05908,0.12793,0.20117
49,0.20264,0.04272,0.13867
60,0.81714,-0.35083,0.31104
62,0.75317,-0.44043,0.31714
64,0.75562,-0.4292,0.33618
66,0.96094,-0.51318,0.27881
68,1.44678,-0.70337,0.04443
70,1.99994,-1.07837,-0.77319
72,1.99994,-1.17236,-2.0
74,1.99994,0.35913,-2.0
76,1.99994,0.90015,1.99994
78,0.07813,-0.90576,1.99994
80,0.06421,-1.32446,1.1333
82,1.69287,-0.80566,1.99994
93,0.91528,-0.10181,1.49561
95,0.70898,-0.0708,0.70483
97,0.99268,0.08105,-0.15161
99,1.16626,0.10498,-0.65967
101,1.00586,-0.01733,-0.50732
103,0.80615,-0.12598,-0.104
105,0.60376,-0.1792,0.30737
107,0.50732,-0.26611,0.41211
109,0.4436,-0.30615,0.41895
111,0.59497,0.23413,0.43359
113,-0.06348,0.4292,1.99994
115,-0.52417,-0.20898,0.44678
126,0.39941,0.91919,-0.21289
128,0.38013,0.64404,0.0188
130,0.33423,0.46948,-0.20483
132,0.29614,0.33887,-0.52954
134,0.24365,0.24438,-0.68896
136,0.21216,0.13208,-0.59741
138,0.198,0.02393,-0.41577
140,0.17188,-0.08667,-0.24146
142,0.13965,-0.19971,-0.1062
144,0.09912,-0.29053,-0.02368
146,0.06714,-0.40356,0.04053
157,-0.3103,-0.38989,1.99994
159,-0.32227,-0.28491,1.99994
161,-0.48901,-0.42187,0.95557
163,-0.33789,-0.48486,0.25317
165,0.00171,-0.47974,0.08081
167,0.33301,-0.4812,0.08984
169,0.45459,-0.42822,-0.10815
171,0.51855,-0.33594,-0.3916
173,0.50635,-0.16943,-0.63501
175,0.42676,-0.09424,-0.70093
177,0.3374,-0.04028,-0.40771
188,0.17554,0.15552,0.25708
190,0.15967,0.17822,0.20776
192,0.1626,0.1499,0.14355
194,0.15796,0.15112,0.11816
196,0.19946,0.15454,0.08911
198,0.22754,0.17041,0.03076
200,0.22852,0.18799,-0.00903
202,0.22803,0.21802,0.00684
204,0.22168,0.24976,-0.01025
206,0.2041,0.28418,-0.01392
208,0.17065,0.32715,-0.02222
210,0.13867,0.35937,0.01978
212,0.10474,0.38306,0.05371
223,-0.00928,0.34106,0.12671
225,-0.02686,0.30371,0.14087
227,-0.0188,0.25757,0.12891
229,0.04858,0.19043,0.09766
231,0.28491,0.02734,0.01514
233,0.86426,-0.21704,-0.08716
235,1.57861,-0.50244,-0.16479
237,1.73242,-0.56274,-0.00439
239,1.06982,-0.36084,0.28931
241,0.60278,-0.10498,0.49976
243,0.32471,-0.05542,0.53979
254,1.99994,-1.07471,-1.09546
256,1.99994,-1.3999,-2.0
258,1.99994,1.10474,-2.0
260,1.22583,1.07397,1.99994
262,-0.51831,-1.01807,1.99994
264,0.55737,-1.48877,1.99994
266,1.99994,-0.61938,1.99994
268,1.99994,0.46313,-0.81616
270,1.99994,0.16089,-2.0
272,1.5769,-0.68921,-1.96753
274,1.82812,-0.4292,1.58521
276,1.06494,-0.14575,1.99994
287,0.4812,-0.16235,0.10034
289,-0.0708,0.48071,1.99994
291,-0.79443,-0.18896,1.45654
293,-0.45776,-0.49658,1.45386
295,-0.13501,-0.19531,0.66382
297,0.42725,0.70337,-0.90234
299,0.6853,1.2124,-1.67993
301,0.57397,1.05566,-1.16553
303,0.45874,0.83765,-0.51953
305,0.42432,0.69458,-0.42114
307,0.32178,0.62891,-0.64282
318,0.06738,0.06812,-0.38403
320,0.03467,-0.07935,-0.2373
322,-0.00537,-0.19263,-0.06567
324,-0.01196,-0.30835,0.06201
326,0.0022,-0.43506,0.1084
328,0.06958,-0.52783,0.06689
330,1.99994,-1.16992,-1.34424
332,1.99994,-0.55762,-2.0
334,1.99994,-0.70679,1.99994
336,-0.58545,-0.50049,1.99994
338,-0.73462,-0.16431,1.47827
349,0.53223,-0.23608,-0.15576
351,0.77979,-0.09717,-0.29297
353,0.86499,-0.04761,-0.73706
355,0.82446,0.00342,-0.8291
357,0.77466,0.01343,-0.59351
359,0.69702,0.02637,-0.12061
361,0.58643,-0.00488,0.23071
363,0.4751,-0.01172,0.36499
365,0.38843,-0.00391,0.37549
367,0.3606,-0.04224,0.17358
369,0.38257,-0.03882,0.1499
371,0.47607,-0.07251,0.21509
382,0.41162,0.06763,0.23877
384,0.33081,0.11255,0.22803
386,0.25781,0.16113,0.15552
388,0.21069,0.22021,0.07104
390,0.1665,0.25439,0.08008
392,0.13843,0.27173,0.09058
394,0.13379,0.27686,0.08179
396,0.14795,0.26025,0.07202
398,0.16235,0.22485,0.08838
400,0.18994,0.20703,0.08887
402,0.19995,0.20923,0.06567
404,0.17114,0.17725,0.07275
406,0.21069,0.15186,0.08154
417,0.31177,0.02588,0.14478
419,0.37427,-0.06812,0.10107
421,0.38159,0.03101,0.14233
423,0.30298,0.00049,0.13965
425,0.34326,-0.08667,0.14673
427,0.4895,-0.10889,0.17798
429,0.61157,-0.25854,0.13989
431,0.84692,-0.41992,0.00464
433,1.72046,-0.72729,-0.44995
435,1.99994,-1.16211,-2.0
437,1.99994,-0.91333,-2.0
439,1.99994,0.48437,1.99994
450,1.99994,0.45898,-2.0
452,1.99994,-1.40674,-0.47559
454,1.99994,-0.63501,0.60156
456,1.72852,0.03296,1.99994
458,1.07642,-0.35645,1.54785
460,1.71289,-0.10522,0.36743
462,1.91382,0.00366,-0.92212
464,1.33008,-0.21851,-0.83374
466,1.07129,-0.21484,-0.34424
468,0.88599,-0.11108,0.24316
470,0.70801,-0.28882,0.55591
472,0.70361,-0.47559,0.47046
483,-0.51099,0.65894,1.99994
485,-0.03052,0.29663,1.60718
487,0.11035,0.82837,-0.51465
489,0.96069,1.99994,-2.0
491,1.12183,1.99994,-1.51074
493,0.82666,1.59668,-0.19531
495,0.6145,1.12158,0.01904
497,0.39209,0.77026,-0.70728
499,0.22925,0.52441,-1.2251
501,0.21973,0.33472,-1.02954
503,0.30078,0.18066,-0.53979
505,0.27734,0.01904,-0.28052
516,-0.09741,-0.62012,0.0437
518,-0.05054,-0.67358,0.09375
520,-0.01685,-0.72266,0.12158
522,0.03052,-0.75537,0.17505
524,1.9187,-1.29883,-1.01611
526,1.99994,-0.70483,-2.0
528,1.99994,-0.58887,1.99994
530,-0.3772,-0.44946,1.73047
532,-0.78955,-0.23975,1.22217
534,-0.79883,-0.46973,1.5144
536,-0.36792,-0.56274,1.97681
547,0.56006,-0.00415,-1.00415
549,0.49609,0.07544,-0.94922
551,0.47998,0.10034,-0.5918
553,0.46118,0.15723,-0.23511
555,0.40015,0.20898,-0.0481
557,0.32471,0.24878,-0.07983
559,0.21826,0.28296,-0.02832
561,0.18628,0.28174,-0.08496
563,0.15967,0.29712,0.07031
565,0.17554,0.28296,0.17505
567,0.15308,0.26782,0.21313
569,0.14941,0.27051,0.15381
580,0.16455,0.40186,-0.07617
582,0.12354,0.4231,-0.05347
584,0.0686,0.41943,0.02661
586,0.07568,0.40771,0.12158
588,0.07104,0.39819,0.15356
590,0.05005,0.35889,0.12988
592,0.11353,0.2644,0.09424
594,0.23364,0.17871,0.05396
596,0.37524,0.05981,0.08496
598,0.54956,-0.10156,0.16162
600,0.80737,-0.21289,0.21118
602,0.64185,-0.1377,0.32056
613,0.41675,-0.4126,0.22656
615,0.69995,-0.4436,0.17261
617,0.62622,-0.38623,0.21558
619,0.68042,-0.51245,0.22632
621,0.84814,-0.59668,0.25391
623,1.16895,-0.77222,-0.00293
625,1.99994,-1.00684,-0.46533
627,1.99994,-1.42505,-2.0
629,1.99994,-0.95654,-2.0
631,-0.69629,-0.27148,1.99994
633,1.66553,0.91699,1.99994
635,1.01221,1.99512,1.99994
646,1.99994,-0.66553,1.99994
648,1.46753,-0.05591,0.26978
650,1.53906,-0.13428,-0.45605
652,1.99994,0.05225,0.15234
654,1.9021,-0.073,-0.01489
656,1.2876,-0.22217,-0.36401
658,0.87012,-0.11426,-0.43726
660,0.84009,-0.09302,-0.01831
662,0.88965,-0.12793,0.40137
664,0.88232,-0.2832,0.33423
666,0.58472,-0.38599,0.39331
677,0.69727,0.4021,0.06836
679,0.35791,0.63965,0.53613
681,0.41406,0.99634,-0.29028
683,0.42896,1.21704,-1.08057
685,0.72437,1.31177,-1.53857
687,0.72534,1.18677,-1.34009
689,0.56104,0.96484,-0.87183
691,0.43433,0.76782,-0.76538
693,0.24609,0.6189,-0.70044
695,0.18872,0.47046,-0.75049
697,0.14673,0.34106,-0.58105
699,0.1604,0.17285,-0.38696
710,0.83008,-0.75928,-0.49658
712,1.99994,-1.08398,-2.0
714,1.99994,-0.26392,-2.0
716,1.25562,-0.91309,0.61255
718,-0.70386,-0.46436,1.99994
720,-0.5144,-0.47754,1.99994
722,-0.43433,-0.4895,1.21631
724,0.09888,-0.479,0.07202
726,1.07764,-0.47192,0.13745
728,1.7666,-0.44482,0.46802
730,1.52832,-0.35376,0.36694
732,0.88428,-0.23804,-0.18774
743,0.26294,0.03735,0.00659
745,0.26245,0.04102,0.16284
747,0.22998,0.03613,0.28491
749,0.13013,0.0144,0.35986
751,0.12549,0.03931,0.15723
753,0.12744,0.06396,0.0896
755,0.14697,0.0957,0.16528
757,0.15381,0.13672,0.20264
759,0.17041,0.17407,0.20142
761,0.15869,0.19238,0.17285
763,0.12939,0.21094,0.15283
765,0.11768,0.23096,0.14063
767,0.1123,0.26025,0.09717
778,0.24023,0.22827,0.24292
780,0.39893,0.15332,0.2522
782,0.56689,0.09351,0.3064
784,0.64185,0.01636,0.37354
786,0.66895,0.03711,0.3877
788,0.51831,0.21899,0.50293
790,0.31616,0.22119,0.4668
792,0.32373,0.16797,0.43799
794,0.34033,0.08716,0.40381
796,0.45239,-0.05566,0.37964
798,0.53833,-0.09204,0.33032
800,0.60767,-0.21484,0.18604
802,0.7063,-0.35132,0.05786
813,-2.0,0.41284,1.99994
815,1.99994,1.20044,1.99994
817,1.99994,0.36182,1.99994
819,-1.4043,-1.55249,-2.0
821,1.99994,-0.68726,-1.62402
823,1.99994,0.55225,-0.7334
825,1.99994,-1.42114,1.2876
827,1.99994,-0.92285,0.36719
829,1.99994,-0.0293,0.40186
831,1.99994,-0.11035,0.2229
833,1.99994,-0.07373,-0.01831
844,0.54272,-0.09863,0.06519
846,0.07227,0.38892,1.88281
848,-1.03931,-0.46973,1.53369
850,-0.57031,-0.72583,1.06421
852,0.14941,-0.11841,-0.14282
854,0.38208,0.79199,-0.97583
856,0.3418,1.41162,-0.84448
858,0.30762,1.40063,-0.91357
860,0.30493,1.21802,-0.69336
862,0.302,1.13379,-0.63867
864,0.29077,1.11621,-0.86816
866,0.24854,1.09009,-1.08813
877,-0.19702,0.14771,-0.16187
879,-0.22754,-0.00464,-0.01465
881,-0.21484,-0.11572,0.01636
883,-0.20483,-0.22998,0.03589
885,-0.1936,-0.31226,0.03833
887,-0.16089,-0.36646,0.02466
889,-0.18433,-0.41528,0.11792
891,-0.15259,-0.39355,0.09985
893,-0.09766,-0.33008,-0.03906
895,-0.04883,-0.26245,-0.09692
906,1.99994,-0.67212,1.99994
908,-0.2063,0.01074,-0.04956
910,-0.76196,0.15234,-1.49365
912,-0.54321,-0.21924,0.82568
914,-0.09741,-0.46143,1.82227
916,0.08569,-0.44751,0.76758
918,-0.06201,-0.39819,-0.74658
920,-0.04199,-0.34766,-1.20923
922,0.27124,-0.27075,-0.78125
924,0.48853,-0.14307,-0.22803
926,0.42139,-0.04883,-0.27563
937,-0.05493,0.41797,-0.0437
939,-0.15063,0.42456,0.11157
941,-0.11987,0.4375,0.2876
943,-0.11475,0.44336,0.31543
945,-0.09082,0.42603,0.24146
947,-0.0769,0.39453,0.0752
949,-0.07788,0.36401,-0.01563
951,-0.06738,0.34497,-0.08545
953,-0.06519,0.34839,-0.10352
955,-0.03345,0.3457,-0.04932
957,-0.05933,0.34473,0.05444
968,-0.25806,0.25171,0.19263
970,-0.27881,0.23462,0.1875
972,-0.29175,0.20142,0.19116
974,-0.30908,0.16138,0.19067
976,-0.29126,0.125,0.22852
978,-0.22949,0.0481,0.25098
980,0.3252,-0.29102,0.06982
982,1.99994,-1.68628,-0.17383
984,1.99994,-2.0,-0.75586
986,1.90942,-0.69189,1.01685
988,0.16504,0.14966,1.61011
990,-0.29419,0.23926,1.57837
1001,1.99994,0.90894,1.99994
1003,0.21069,-1.05713,1.99994
1005,0.96143,-1.37061,1.99994
1007,1.99994,-0.17188,1.99994
1009,1.99994,0.34595,-2.0
1011,1.5603,-0.69019,-2.0
1013,1.99994,-0.5332,1.49438
1015,1.49585,-0.04272,1.99994
1017,1.05493,-0.04004,0.8064
1019,1.82104,0.09644,-0.68506
1021,1.58789,-0.02368,-0.71484
1023,1.17798,-0.31592,-0.05127
1034,0.68872,-0.08911,-0.16089
1036,0.03101,-0.05811,0.55469
1038,-0.29492,0.37524,1.99994
1040,-0.7644,-0.44482,0.39941
1042,-0.39185,-0.37378,-0.15137
1044,0.02222,-0.14502,-0.15723
1046,0.33667,0.29492,-0.03247
1048,0.54614,0.86938,-0.33105
1050,0.53174,1.25391,-0.96045
1052,0.43823,1.19531,-1.47559
1054,0.23926,0.99512,-1.14795
1065,0.12744,0.36206,-0.39624
1067,0.06689,0.22827,-0.28076
1069,-0.10864,0.03101,-0.1123
1071,-0.15137,-0.06934,-0.07422
1073,-0.13599,-0.15479,-0.07935
1075,-0.09131,-0.21899,-0.00366
1077,-0.05835,-0.2644,0.0686
1079,-0.05054,-0.30518,0.09888
1081,-0.05005,-0.35229,0.09595
1083,-0.05859,-0.38696,0.06421
1094,-0.06152,-0.44116,-0.74097
1096,-0.69531,0.06665,1.92358
1098,-0.36304,-0.16528,1.99994
1100,-0.44971,-0.32812,1.83813
1102,-0.46387,-0.32568,-0.14795
1104,-0.35034,-0.30469,-0.68359
1106,-0.00317,-0.32349,-0.18579
1108,0.30029,-0.29248,0.23315
1110,0.39185,-0.14575,-0.0332
1112,0.31226,-0.00952,-0.83862
1114,0.24023,0.08472,-0.97607
1125,0.01367,0.32104,0.24609
1127,-0.05249,0.35791,0.24902
1129,-0.10132,0.36133,0.1731
1131,-0.1499,0.35327,0.05688
1133,-0.11401,0.33228,-0.00415
1135,-0.07813,0.33447,-0.02417
1137,0.00293,0.31812,-0.02563
1139,0.10303,0.25415,-0.01904
1141,0.64893,0.0105,-0.03931
1143,1.75635,-0.44043,0.03467
1145,1.99994,-0.66016,0.02954
1156,0.13892,0.20093,0.40112
1158,0.5708,-0.02319,0.26562
1160,0.73633,0.01489,0.16602
1162,0.59937,-0.01001,0.2002
1164,0.49512,0.05054,0.18848
1166,0.36523,0.00586,0.19653
1168,0.43848,-0.06909,0.22632
1170,0.55566,-0.13037,0.22803
1172,0.80249,-0.28076,0.11011
1174,1.25024,-0.46436,-0.04395
1176,1.99994,-0.7605,-0.41406
1178,1.99994,-1.05835,-2.0
1189,1.82031,-0.30859,-1.71973
1191,1.99994,0.73462,-2.0
1193,1.99994,-0.50659,-0.24292
1195,1.77417,-0.71118,0.63623
1197,1.70435,0.30347,0.79858
1199,0.875,-0.021,0.5127
1201,1.44531,-0.27637,0.70508
1203,1.90723,-0.11548,0.31348
1205,1.36499,-0.18237,-0.36816
1207,0.90771,-0.17651,-0.72827
1209,0.80615,-0.08447,-0.28711
1211,0.67334,-0.07129,0.46069
1222,0.33789,0.15283,-0.36206
1224,0.26001,0.43652,-0.22485
1226,0.48779,0.9104,-0.41235
1228,0.66064,1.24023,-0.73804
1230,0.70142,1.25513,-1.07935
1232,0.5271,1.0791,-1.01025
1234,0.375,0.87305,-0.84009
1236,0.31128,0.70093,-0.73462
1238,0.26953,0.54346,-0.60254
1240,0.25684,0.39868,-0.53589
1242,0.2146,0.25659,-0.46753
1244,0.18237,0.1062,-0.44116
1255,0.02124,-0.45801,-0.00293
1257,0.03491,-0.50903,-0.00977
1259,1.02319,-0.79492,-0.63232
1261,1.99994,-1.06226,-2.0
1263,1.99994,-0.29687,1.3645
1265,0.11572,-0.50293,1.20142
1267,-0.59399,-0.05298,1.86548
1269,-0.36719,-0.18896,1.99994
1271,-0.14355,-0.30762,1.99994
1273,-0.02734,-0.3269,1.06421
1275,0.14697,-0.3252,-0.1123
1286,0.55396,0.03613,0.10449
1288,0.41821,0.09668,0.20825
1290,0.27515,0.15137,0.05737
1292,0.18262,0.16602,-0.03857
1294,0.198,0.16895,0.03735
1296,0.21606,0.16455,0.25635
1298,0.22363,0.13037,0.38159
1300,0.32227,0.12622,0.35156
1302,0.46191,0.0979,0.25928
1304,0.55151,0.06567,0.15845
1306,0.59375,0.04541,0.1167
1308,0.60059,0.04541,0.10815
1310,0.52417,0.08105,0.13428
1321,0.29663,0.3374,0.0835
1323,0.28101,0.33081,0.05566
1325,0.24609,0.34619,0.03149
1327,0.19727,0.32251,0.00049
1329,0.2002,0.27075,-0.00781
1331,0.19971,0.17603,0.06152
1333,0.26001,0.13965,0.12549
1335,0.45044,0.04346,0.08301
1337,0.46875,0.09351,0.14185
1339,0.43896,0.0293,0.15918
1341,0.44775,0.03369,0.14526
1343,0.27954,0.11279,0.11255
1345,0.24268,0.06177,0.21582
1356,1.19678,-0.65601,0.05884
1358,1.99994,-0.98926,-0.76807
1360,1.99994,-2.0,-2.0
1362,1.62622,0.22241,-2.0
1364,-1.32202,0.84863,1.24561
1366,1.99994,0.92627,1.99994
1368,-0.92529,-0.30762,-2.0
1370,1.51904,-1.12183,1.99994
1372,1.99994,-0.4021,1.09473
1374,1.99994,0.13892,-2.0
1376,1.12134,-0.56934,-0.66748
