timestamp,ax,ay,az
0,0.15845,0.11938,0.03223
2,0.37134,-0.03442,-0.04614
4,0.7041,-0.24829,-0.12256
15,1.99994,-0.80493,-1.62793
17,1.99994,-0.23779,-0.77368
19,1.82886,1.18604,1.99994
21,0.51025,-0.19604,1.99994
23,0.49854,-0.57104,0.99146
25,1.0127,-0.84619,1.99994
27,1.62085,-0.56226,1.99994
29,1.83008,-0.07007,0.23291
31,1.99994,-0.0188,0.42212
33,1.84668,-0.0249,-0.01636
35,1.28467,-0.08252,-0.33276
46,0.94336,0.1084,0.28833
48,0.84521,0.07568,-0.01392
50,0.89014,-0.0083,-0.26978
52,0.87988,0.104,-0.45947
54,0.47876,0.24292,-0.22339
56,0.29468,0.58154,0.74805
58,0.05542,0.54614,0.2439
60,0.09399,0.6792,-0.00415
62,0.11572,0.80273,0.06812
64,0.19092,0.83984,0.06079
66,0.28564,0.89136,0.02075
68,0.34351,0.93213,-0.02734
70,0.37451,0.88916,-0.19336
81,0.14844,0.15918,-0.20996
83,0.11377,0.08862,-0.26367
85,0.07617,-0.04053,-0.19727
87,0.0459,-0.16333,-0.09375
89,0.05396,-0.25342,0.00098
91,0.07104,-0.3313,0.04541
93,0.08228,-0.38599,0.02881
95,0.09375,-0.42969,-0.01123
97,0.11353,-0.46265,0.03833
99,0.24048,-0.56177,0.05835
101,1.99994,-2.0,1.99994
112,0.63062,-0.3916,0.54858
114,-0.02002,-0.39624,-1.12476
116,0.33301,-0.41675,0.20068
118,0.42969,-0.43042,0.54956
120,0.28589,-0.3999,0.00293
122,0.07861,-0.35034,-0.42407
124,-0.00317,-0.31372,-0.38721
126,0.02783,-0.2417,0.07275
128,0.12939,-0.17993,0.32544
130,0.13623,-0.08081,0.30396
132,0.11108,0.02563,0.09692
143,0.05688,0.2644,0.03979
145,0.03296,0.27344,-0.08228
147,0.03906,0.26855,-0.02881
149,0.04858,0.26074,0.00757
151,0.04272,0.25073,0.03003
153,0.01953,0.24219,0.03271
155,-0.00586,0.23389,0.02173
157,-0.01514,0.22876,0.02002
159,-0.02563,0.21875,0.04468
161,-0.01172,0.19873,0.06689
163,-0.01514,0.17456,0.08594
165,0.01123,0.13013,0.08618
167,0.10352,0.0498,0.08276
178,-0.28369,0.47778,0.81396
180,-0.21753,0.42773,0.68262
182,-0.00879,0.27515,0.33276
184,0.28101,0.17358,0.07007
186,0.56396,-0.0376,-0.15991
188,0.8186,-0.20483,-0.30298
190,0.94019,-0.32422,-0.31616
192,0.93848,-0.38794,-0.21265
194,0.98169,-0.43799,-0.10229
196,1.33984,-0.53711,-0.1355
198,1.99994,-0.81958,-0.59595
209,-0.19214,-0.59814,0.13867
211,0.74219,-0.66577,1.93408
213,0.7373,-0.45654,0.03735
215,1.37183,-0.30981,-0.49683
217,1.99994,-0.13306,-0.42041
219,1.99994,0.02588,-0.96606
221,1.84399,-0.09009,-0.51807
223,1.22363,-0.34155,-0.14868
225,1.0061,-0.29736,0.23047
227,0.84106,-0.16724,0.49902
229,0.81079,-0.05884,0.7373
240,0.72314,-0.20386,-0.13208
242,0.74683,-0.01685,0.07251
244,0.65063,0.84741,1.52368
246,-0.11523,0.3457,-1.40552
248,0.3584,0.75879,-1.05762
250,0.50415,0.95117,0.34399
252,0.42358,0.94727,0.72754
254,0.23315,0.98242,0.02808
256,0.12085,0.93848,-0.65332
258,0.16724,0.94287,-0.69287
260,0.33203,0.91162,-0.42944
262,0.4043,0.80713,-0.26904
273,0.0498,0.07642,-0.12524
275,0.01587,0.02148,-0.18726
277,0.00464,-0.09424,-0.11743
279,0.02295,-0.18726,-0.06519
281,0.04004,-0.26001,-0.04077
283,0.06348,-0.32031,-0.02979
285,0.07275,-0.36963,-0.05542
287,0.0813,-0.42505,0.02563
289,0.10352,-0.46851,0.01221
291,0.19775,-0.53125,-0.0332
293,1.99994,-2.0,-1.87378
295,1.99994,0.33618,1.99994
306,-0.00073,-0.35083,-1.4502
308,0.33545,-0.45532,0.08105
310,0.04224,-0.44653,-0.81958
312,-0.00439,-0.4187,-1.0188
314,0.16504,-0.34888,-0.46948
316,0.23926,-0.24268,0.2019
318,0.23267,-0.14478,0.38379
320,0.11768,-0.00293,0.12939
322,0.04687,0.08691,-0.07007
324,0.0144,0.17334,-0.08447
326,0.02637,0.19897,0.12134
337,0.03296,0.20386,-0.17383
339,0.07178,0.18848,-0.03809
341,0.05127,0.19238,-0.09424
343,0.02515,0.20703,-0.11426
345,0.01587,0.20557,-0.0835
347,0.01514,0.18506,-0.01978
349,0.01587,0.17627,0.02612
351,0.0127,0.14258,0.06958
353,0.0083,0.13184,0.05688
355,-0.01172,0.09277,0.01953
357,-0.01831,0.05518,-0.00415
359,-0.02783,0.02808,0.00146
370,1.99994,-1.60449,0.13989
372,1.99994,-1.14502,0.33862
374,0.64526,-0.24829,0.96973
376,-0.03369,0.2395,1.29785
378,-0.00537,0.29687,1.14893
380,0.44849,0.06445,0.65674
382,1.32104,-0.26343,0.02124
384,1.99994,-0.49561,-0.33594
386,1.99994,-0.58618,-0.4248
388,1.99994,-0.71216,-0.73047
390,1.99994,-0.48535,-2.0
401,0.72119,-0.50098,0.84741
403,1.07739,-0.28638,0.77271
405,1.27222,0.00098,-0.46924
407,1.88159,0.12183,-0.59082
409,1.99994,0.07935,-0.48145
411,1.81201,-0.05444,-0.23511
413,1.2063,-0.21289,-0.14844
415,0.84521,-0.23315,-0.01001
417,0.74951,-0.14038,0.11841
419,0.76465,-0.04883,0.34058
421,0.74683,-0.06494,0.50171
423,0.62744,-0.08716,0.57324
434,0.25146,0.7229,-0.33545
436,0.31372,0.71289,0.11035
438,0.28027,0.72314,0.04834
440,0.26392,0.69922,-0.18799
442,0.31494,0.67017,-0.42114
444,0.34888,0.65674,-0.54346
446,0.37109,0.59497,-0.51611
448,0.35425,0.50562,-0.46289
450,0.33276,0.41211,-0.38184
452,0.28101,0.31128,-0.3103
454,0.21948,0.21094,-0.27173
456,0.1665,0.10254,-0.22021
467,0.29321,-0.36499,-0.13843
469,1.03809,-0.63599,-0.59155
471,1.99994,-1.06323,-2.0
473,1.99994,0.57007,1.99994
475,-0.16748,0.09985,1.03687
477,-0.43701,-0.31714,-0.13184
479,-0.30762,-0.21094,0.37549
481,-0.03369,-0.27979,0.64185
483,0.20166,-0.38647,0.41528
485,0.15723,-0.45044,-0.10596
487,0.11206,-0.48755,-0.50586
498,0.10962,-0.05786,0.01733
500,0.104,-0.01538,0.10596
502,0.05444,0.03662,0.22363
504,-0.00317,0.05835,0.24634
506,-0.03174,0.09424,0.23926
508,-0.05786,0.11377,0.23804
510,-0.08325,0.11987,0.23047
512,-0.03296,0.12524,0.21997
514,0.03442,0.15112,0.1748
516,0.22852,0.14282,0.18823
518,1.00781,-0.104,0.39648
520,1.99994,-0.75854,1.63306
531,-0.06348,0.41968,0.05298
533,-0.00879,0.38501,0.11914
535,0.01147,0.31128,0.03003
537,0.08228,0.19409,-0.04663
539,0.19507,0.0481,-0.04565
541,0.50024,-0.14282,-0.02222
543,0.89233,-0.30713,0.03149
545,1.13989,-0.34521,0.17041
547,0.99072,-0.27856,0.31226
549,0.66821,-0.11206,0.36621
551,0.47729,0.00806,0.40405
553,0.42285,0.04565,0.38696
564,1.99994,-0.48169,-0.30957
566,1.99994,-0.60791,-0.46216
568,1.99994,-0.76733,-1.69556
570,1.99994,-1.34229,-2.0
572,1.99994,0.89917,1.99994
574,0.77271,0.20459,1.99994
576,0.52686,-0.41553,0.14722
578,0.77588,-0.47559,-0.42847
580,1.2688,-0.33228,0.41113
582,1.78052,-0.25977,1.15796
584,1.99994,-0.11377,0.729
586,1.74829,0.02466,-0.23047
597,0.75879,0.18506,-0.41187
599,0.69873,0.21533,-0.29395
601,0.55469,0.2749,-0.22192
603,0.2417,0.31787,0.18408
605,-0.10156,0.23877,0.29956
607,-0.14697,0.24463,0.15625
609,-0.08789,0.3833,0.23608
611,-0.03711,0.54761,0.34473
613,0.03857,0.68042,0.28003
615,0.1145,0.76367,0.14746
617,0.1731,0.81055,-0.01733
619,0.23242,0.80322,-0.20044
630,0.20117,0.31738,-0.25464
632,0.1665,0.24634,-0.27856
634,0.14648,0.10352,-0.20386
636,0.14429,-0.02832,-0.1394
638,0.14331,-0.17017,-0.09424
640,0.14063,-0.29077,-0.09058
642,0.16797,-0.39111,-0.0896
644,0.46094,-0.66943,0.05811
646,1.99994,-2.0,1.99994
648,1.99994,0.64746,-1.18994
650,0.4126,0.02002,1.99994
661,0.21265,-0.36377,-0.30151
663,0.2207,-0.40186,0.14282
665,0.32397,-0.42896,0.43848
667,0.1814,-0.39795,0.02417
669,0.03418,-0.33154,-0.32568
671,-0.01489,-0.25684,-0.27612
673,0.04858,-0.20801,0.08545
675,0.07764,-0.13379,0.35669
677,0.07837,-0.05908,0.35254
679,0.03223,0.01123,0.16675
681,0.02295,0.07422,-0.05591
683,0.04297,0.13574,-0.14673
694,0.02905,0.21436,-0.00146
696,0.05884,0.21118,0.13916
698,0.08447,0.18848,0.17285
700,0.1377,0.1416,0.23975
702,0.72168,-0.19116,0.79199
704,1.99994,-1.13818,1.99994
706,1.99994,-0.97217,1.53491
708,1.27832,-0.06006,0.11792
710,0.46216,0.43115,-0.10938
712,0.17822,0.58618,-0.10767
714,0.01318,0.5791,-0.07959
716,-0.00879,0.49707,-0.02173
727,0.61792,-0.31104,0.1731
729,0.78833,-0.41113,0.23462
731,1.08276,-0.56616,0.26318
733,1.00024,-0.43213,0.35718
735,0.70239,-0.29102,0.31738
737,0.57129,-0.17871,0.26562
739,0.52954,-0.16089,0.21777
741,0.61499,-0.17749,0.13721
743,0.82837,-0.27393,0.03589
745,1.0918,-0.40405,-0.06665
747,1.36621,-0.50537,-0.05273
749,1.75635,-0.6355,-0.05591
760,0.52783,-0.56079,0.52295
762,1.18237,-0.63501,0.53857
764,1.45923,-0.57764,0.78638
766,1.3772,-0.27661,0.58594
768,1.34448,-0.16577,0.31201
770,1.44995,-0.11182,0.23608
772,1.48877,-0.06958,0.21802
774,1.40088,-0.08252,0.25464
776,1.229,-0.19629,0.24292
778,1.08081,-0.25928,0.24097
780,1.00537,-0.23096,0.24976
791,0.40723,0.02661,-0.4458
793,0.28491,0.25,-0.15112
795,-0.11743,0.34229,0.17456
797,-0.13574,0.36792,0.05591
799,-0.00684,0.60962,0.40601
801,-0.00781,0.81396,0.604
803,-0.00952,0.9519,0.41064
805,0.04834,1.01514,0.04395
807,0.11475,1.021,-0.23242
809,0.18555,0.95239,-0.42847
811,0.24438,0.80664,-0.51294
813,0.25537,0.63379,-0.52075
824,-0.00757,-0.1377,-0.20044
826,0.00342,-0.19141,-0.12476
828,-0.01294,-0.2771,-0.09814
830,-0.02051,-0.35962,-0.07275
832,0.00879,-0.4209,-0.05762
834,0.0874,-0.45508,-0.05591
836,0.89795,-1.34131,0.47827
838,1.99994,0.19214,1.99994
840,1.99994,1.32129,-2.0
842,0.43677,-0.5144,-1.00854
844,0.60669,-0.09082,1.78198
855,0.229,-0.33618,0.17773
857,0.06885,-0.31519,-0.05566
859,0.14429,-0.30957,0.5498
861,0.10522,-0.2561,0.52661
863,0.00439,-0.19434,0.1626
865,-0.02686,-0.16919,-0.02881
867,-0.01392,-0.12085,-0.00708
869,0.04541,-0.09375,0.16187
871,0.07104,-0.07959,0.2688
873,0.10815,-0.01172,0.19678
875,0.09473,0.0708,0.04102
886,0.08105,0.25195,0.12646
888,0.05664,0.25781,0.02319
890,0.05176,0.24609,0.10229
892,0.06689,0.24268,0.1665
894,0.22583,0.18213,0.26221
896,1.41626,-0.50684,0.61353
898,1.99994,-1.8418,1.99994
900,1.99994,-0.90381,0.85962
902,0.51367,0.32568,0.31348
904,0.07275,0.75659,0.39551
906,-0.04834,0.74731,0.26489
908,-0.0603,0.65771,0.09741
910,-0.0481,0.56689,-0.03027
921,0.35205,-0.21118,0.01294
923,0.59399,-0.28247,-0.00366
925,0.99854,-0.45361,0.02124
927,1.28613,-0.53735,0.10303
929,1.15405,-0.46362,0.20117
931,0.83325,-0.34595,0.21729
933,0.58594,-0.27881,0.2019
935,0.48633,-0.11548,0.27856
937,0.46924,-0.18188,0.05688
939,0.67871,-0.27124,-0.13135
941,0.83228,-0.38062,-0.17749
943,1.07568,-0.51636,-0.21313
954,1.99994,1.71313,0.69141
956,0.47656,0.64233,0.12451
958,0.79102,-0.59277,1.66333
960,1.74512,-0.81934,1.99994
962,1.48633,-0.39551,0.59839
964,1.32666,-0.23926,-0.68848
966,1.66284,-0.25098,-0.32837
968,1.99994,-0.12915,0.68018
970,1.99994,-0.11938,0.91431
972,1.70044,-0.18823,0.45581
974,1.34766,-0.25342,-0.08691
985,0.99756,-0.01196,-0.10352
987,1.0022,-0.03589,-0.02686
989,0.97339,-0.03955,-0.01147
991,0.89111,-0.03149,-0.04492
993,0.76318,-0.08496,-0.05347
995,0.55273,-0.13599,0.1084
997,0.05811,-0.02734,0.80713
999,-0.15454,0.20264,1.99994
1001,-0.33179,-0.04248,0.54126
1003,-0.16895,0.21069,0.00562
1005,0.10938,0.65845,-0.22705
1016,0.35547,1.21094,-0.55591
1018,0.34473,0.98315,-0.46338
1020,0.29907,0.74902,-0.4397
1022,0.26758,0.52466,-0.47949
1024,0.25244,0.41968,-0.53564
1026,0.25659,0.36572,-0.52417
1028,0.22046,0.31445,-0.427
1030,0.17554,0.22559,-0.32202
1032,0.14111,0.13037,-0.24365
1034,0.10327,0.05786,-0.19092
1036,0.06055,-0.02246,-0.10645
1038,0.04419,-0.10962,-0.07397
1049,0.11255,-0.22192,-0.15112
1051,0.13574,-0.25269,-0.11182
1053,0.13892,-0.27686,-0.12061
1055,0.16479,-0.29126,-0.13623
1057,0.17871,-0.31079,-0.16504
1059,0.21509,-0.33398,-0.12842
1061,0.2334,-0.34375,-0.05835
1063,0.34644,-0.39453,-0.05859
1065,1.99994,-2.0,-2.0
1067,1.99994,-0.55933,1.99994
1069,-0.36841,0.43091,-2.0
1080,0.17603,-0.20239,-0.57007
1082,0.08008,-0.26489,-0.46875
1084,0.02222,-0.27686,-1.06519
1086,0.08423,-0.26392,-0.57153
1088,0.22974,-0.22266,-0.0061
1090,0.26221,-0.11572,0.18677
1092,0.21899,-0.00122,0.05981
1094,0.15771,0.10645,-0.07178
1096,0.073,0.1814,-0.07617
1098,0.00317,0.19995,0.03467
1100,-0.01929,0.19922,0.21655
1111,0.05762,0.0293,0.1311
1113,0.04858,-0.02173,0.06885
1115,0.03662,-0.0415,0.01172
1117,0.0127,-0.05542,-0.00269
1119,-0.00049,-0.06445,0.02515
1121,-0.01611,-0.07251,0.07959
1123,-0.02173,-0.05811,0.1626
1125,-0.02905,-0.0376,0.17627
1127,-0.03174,-0.02808,0.16577
1129,-0.04687,-0.03442,0.14014
1131,-0.07275,-0.02979,0.10718
1142,0.24072,-0.17456,-0.00635
1144,0.47876,-0.25,-0.08838
1146,1.99994,-1.38184,-1.70581
1148,1.99994,-2.0,-2.0
1150,1.99994,-1.32202,-0.3855
1152,1.99994,0.50024,-2.0
1154,1.99994,1.99994,-1.11279
1156,1.99994,1.72241,1.99994
1158,0.90308,-0.04272,1.99994
1160,0.54614,-0.96631,1.22852
1162,0.78906,-1.09375,1.31616
1173,1.99994,-0.09961,-0.68457
1175,1.70483,-0.09961,-0.46973
1177,1.28784,-0.24219,0.09473
1179,0.95508,-0.13379,0.38159
1181,0.75244,0.01294,0.51172
1183,0.64771,0.05884,0.64771
1185,0.48608,0.02295,0.73242
1187,0.11035,0.1377,1.57593
1189,-0.25562,-0.15088,0.948
1191,0.052,-0.20435,0.15063
1193,0.51807,0.02881,-0.37256
1195,0.69531,0.33228,-0.64771
1206,0.34277,0.95581,-0.53101
1208,0.36548,0.94116,-0.57056
1210,0.35034,0.89258,-0.56543
1212,0.35645,0.82861,-0.60913
1214,0.36279,0.73071,-0.63037
1216,0.32397,0.60913,-0.58179
1218,0.25854,0.45703,-0.49341
1220,0.19287,0.29419,-0.39819
1222,0.13794,0.12207,-0.28564
1224,0.09521,-0.02588,-0.19702
1226,0.06689,-0.15454,-0.13281
1228,0.04614,-0.25903,-0.12158
1239,0.96631,-0.6438,-0.51123
1241,1.99994,-1.4209,-2.0
1243,1.99994,-0.07324,1.99994
1245,0.0188,-1.08643,1.99994
1247,-0.72974,-0.35352,1.99994
1249,-0.61133,-0.2627,1.84985
1251,-0.24756,-0.28223,0.62207
1253,0.22461,-0.19653,-0.33594
1255,0.56128,-0.08008,-0.88184
1257,0.66211,-0.11279,-0.9812
1259,0.66699,-0.1084,-0.7334
1270,0.20093,0.17529,0.33203
1272,0.11572,0.16455,0.40527
1274,0.10791,0.1272,0.36963
1276,0.11548,0.08911,0.31445
1278,0.20898,0.03491,0.2771
1280,0.51221,-0.09131,0.27393
1282,1.29565,-0.29712,0.43359
1284,1.99994,-0.50562,0.80981
1286,1.74487,-0.47827,0.99097
1288,0.88672,-0.22876,0.80591
1290,0.43994,0.03687,0.66113
1292,0.31958,0.15918,0.47046
1303,0.39014,0.1189,-0.01392
1305,0.35254,0.06665,0.02979
1307,0.35767,0.01807,0.06738
1309,0.38574,-0.01367,0.1167
1311,0.43335,-0.02393,0.16528
1313,0.48071,-0.10815,0.13965
1315,0.59082,-0.20435,0.14966
1317,0.67407,-0.30615,0.1228
1319,0.75659,-0.21631,0.14233
1321,0.6333,-0.1626,0.15991
1323,0.52588,-0.08252,0.23145
1325,0.44116,-0.05469,0.22607
1336,0.83179,-0.28882,-0.07349
1338,0.89502,-0.35449,-0.16724
1340,1.05835,-0.45044,-0.23584
1342,1.27002,-0.49072,-0.28125
1344,1.62842,-0.5376,-0.46216
1346,1.99994,-0.64966,-0.8938
1348,1.99994,-0.51709,-2.0
1350,1.99994,0.5105,-2.0
1352,1.99994,1.66309,1.99994
1354,1.40942,0.70312,1.99994
1356,-0.12085,-0.18994,0.24194
1358,-0.00879,-0.70044,0.33716
1369,1.76636,0.06689,0.7937
1371,1.90942,0.03833,-0.46973
1373,1.85596,0.00537,-1.35913
1375,1.45703,-0.07739,-1.14526
1377,1.16919,-0.2312,-0.37402
1379,1.03564,-0.10229,0.35205
1381,0.89575,0.07373,0.57373
1383,0.70923,0.07666,0.52295
1385,0.59863,0.00464,0.43433
