timestamp,ax,ay,az
0,1.14429,-0.0437,0.3938
2,1.12451,-0.06104,0.33105
4,1.1145,-0.0791,0.33667
15,1.0564,-0.1709,0.08887
17,1.07153,-0.1394,0.13843
19,1.0708,-0.1001,0.18042
21,1.05298,-0.08594,0.21777
23,1.01782,-0.08105,0.22607
25,0.97949,-0.10278,0.21704
27,0.94458,-0.12964,0.20337
29,0.90967,-0.16797,0.16553
31,0.89844,-0.19165,0.14941
33,0.87964,-0.2146,0.12109
35,0.87378,-0.21411,0.09302
37,0.85986,-0.21509,0.07935
39,0.85327,-0.20728,0.0791
41,0.83398,-0.20483,0.06567
52,0.68628,-0.21216,0.07764
54,0.67139,-0.20947,0.07397
56,0.65112,-0.19873,0.07373
58,0.63599,-0.2063,0.08472
60,0.60937,-0.20288,0.06421
62,0.59448,-0.2019,0.0686
64,0.56226,-0.19531,0.06274
66,0.53857,-0.19604,0.05737
68,0.49951,-0.20142,0.06177
70,0.4646,-0.2019,0.08301
72,0.42847,-0.2002,0.09351
74,0.39795,-0.19873,0.09277
76,0.38013,-0.20435,0.08789
87,0.26587,-0.27759,0.04712
89,0.24976,-0.28906,0.02954
91,0.23706,-0.29858,0.00342
93,0.22876,-0.31274,0.00757
95,0.2312,-0.3125,-0.00146
97,0.22363,-0.32666,-0.02197
99,0.21533,-0.33936,-0.04883
101,0.21655,-0.35376,-0.02979
103,0.20361,-0.37061,-0.06055
105,0.19531,-0.39722,-0.10352
107,0.19824,-0.4397,-0.12549
109,0.20264,-0.47217,-0.12427
120,0.4668,-0.53687,-0.09961
122,0.47949,-0.52441,-0.05127
124,0.5332,-0.51343,0.03662
126,0.67871,-0.51978,0.10498
128,1.02856,-0.5293,0.21313
130,1.99994,-0.37988,0.62207
132,1.99994,1.99994,1.99994
134,1.99994,1.99994,-0.01538
136,1.99994,-0.57861,-0.69067
138,-0.97852,-0.3728,-2.0
140,1.1438,0.31494,0.03345
142,1.45679,-0.00342,1.57397
144,0.94653,-0.55298,0.21167
155,0.97095,-0.10034,0.15063
157,0.8877,-0.14502,0.65381
159,0.68433,-0.14063,0.52637
161,0.74121,0.01343,0.21582
163,0.87085,0.1272,-0.14697
165,0.89722,0.07715,-0.08594
167,0.9519,-0.0437,0.05176
169,1.00366,-0.17432,0.1626
171,1.00928,-0.24951,0.26782
173,0.97363,-0.32251,0.2334
175,0.95435,-0.35889,0.1814
177,1.02124,-0.33569,0.09448
179,1.13086,-0.24658,0.03638
181,1.29761,-0.16577,-0.11523
192,1.88306,0.82788,0.04028
194,1.89526,0.81079,0.1438
196,1.84204,0.75293,0.11426
198,1.75317,0.62646,0.11963
200,1.64795,0.47827,0.13818
202,1.55347,0.36694,0.16943
204,1.47559,0.28467,0.19604
206,1.39746,0.21216,0.20605
208,1.33301,0.16821,0.18188
210,1.25439,0.11694,0.125
212,1.19214,0.03931,0.06323
214,1.13428,-0.02539,0.02222
216,1.09204,-0.08032,-0.01074
218,1.04614,-0.15869,0.00171
229,0.84741,-0.38794,0.01123
231,0.84277,-0.38696,0.02905
233,0.81543,-0.38599,0.00073
235,0.79834,-0.40137,-0.03687
237,0.78491,-0.39648,-0.08643
239,0.75952,-0.39331,-0.11279
241,0.72876,-0.39648,-0.13623
243,0.71362,-0.37842,-0.14795
245,0.7063,-0.36035,-0.17749
247,0.67334,-0.3374,-0.18262
249,0.63867,-0.31616,-0.15967
251,0.59009,-0.30542,-0.13867
253,0.53638,-0.28052,-0.09766
264,0.32422,-0.24634,0.09961
266,0.31079,-0.24829,0.15088
268,0.25513,-0.24268,0.17383
270,0.21045,-0.22656,0.2002
272,0.16528,-0.22388,0.21045
274,0.11963,-0.20874,0.23608
276,0.08862,-0.19214,0.26172
278,0.05762,-0.18433,0.29102
280,0.03296,-0.18042,0.29272
282,0.01538,-0.1814,0.29883
284,-0.0022,-0.1875,0.29199
286,0.00244,-0.20166,0.24854
288,0.01294,-0.20435,0.2002
299,0.37573,-0.29712,-0.18237
301,0.38013,-0.29541,-0.17432
303,0.33838,-0.30615,-0.17407
305,0.2793,-0.30347,-0.16211
307,0.22021,-0.31885,-0.12378
309,0.20776,-0.34204,-0.14819
311,0.21704,-0.37109,-0.16528
313,0.27295,-0.40063,-0.20312
315,0.36108,-0.42285,-0.23755
317,0.47119,-0.44678,-0.21802
319,0.63306,-0.45166,-0.23975
321,0.83032,-0.43506,-0.19385
332,-2.0,-1.78931,-2.0
334,1.99994,-1.45068,1.99994
336,1.6145,0.40527,-2.0
338,-0.34961,0.42285,-1.17651
340,0.48462,-0.35937,1.12524
342,1.13989,-0.03125,1.17676
344,1.01147,0.12183,0.11865
346,1.08325,0.1394,-0.57129
348,1.38159,0.12817,-0.71777
350,1.51514,-0.14331,-0.06055
352,1.37354,-0.20703,0.67383
354,1.11938,-0.23047,0.61743
365,0.76001,-0.82593,0.4895
367,0.67749,-0.85791,0.18115
369,0.69336,-0.86548,0.16821
371,0.78369,-0.66138,0.19312
373,1.04565,-0.22437,0.13843
375,1.71338,0.36597,-0.17871
377,1.99994,1.12671,-0.75439
379,1.99994,1.56909,-0.40698
381,1.99994,1.5271,0.26025
383,1.9585,1.52808,0.10791
385,1.99994,1.46924,-0.01587
387,1.99994,1.29492,0.14575
389,1.94775,0.98657,0.1748
391,1.78857,0.69165,0.07251
402,1.0542,-0.28784,0.1521
404,0.9668,-0.38062,0.15015
406,0.91016,-0.44263,0.09814
408,0.86108,-0.48657,0.10913
410,0.82959,-0.48975,0.05859
412,0.8064,-0.46387,-0.00171
414,0.77222,-0.42969,-0.05469
416,0.7395,-0.40625,-0.12109
418,0.72485,-0.38306,-0.15283
420,0.73389,-0.37769,-0.16455
422,0.74219,-0.36328,-0.17358
424,0.75513,-0.34448,-0.13867
426,0.76685,-0.34692,-0.11865
437,0.60522,-0.26465,0.02051
439,0.59326,-0.26465,0.04395
441,0.57056,-0.26099,0.07227
443,0.53979,-0.23071,0.11133
445,0.50903,-0.20557,0.14136
447,0.48486,-0.17993,0.13281
449,0.43994,-0.16553,0.15063
451,0.38379,-0.16943,0.15771
453,0.34204,-0.14087,0.14966
455,0.31226,-0.11841,0.19824
457,0.28467,-0.10791,0.23486
459,0.25464,-0.08472,0.26807
461,0.23096,-0.0603,0.26978
472,0.12842,0.00415,0.18042
474,0.11792,-0.00562,0.14771
476,0.11621,-0.01904,0.12354
478,0.12012,-0.02905,0.09985
480,0.10693,-0.03418,0.10449
482,0.08862,-0.03979,0.12158
484,0.05249,-0.073,0.08398
486,0.05005,-0.08276,0.01343
488,0.03564,-0.12769,-0.04248
490,0.04932,-0.20166,-0.10352
492,0.11304,-0.28174,-0.21045
494,0.16602,-0.39062,-0.27905
496,0.20898,-0.43945,-0.33008
507,0.13477,-0.49023,-0.34546
509,0.20068,-0.5083,-0.28247
511,0.28589,-0.57593,-0.34912
513,0.47437,-0.64502,-0.41309
515,0.7312,-0.70215,-0.4624
517,0.98462,-0.72217,-0.39819
519,1.11426,-0.69629,-0.3313
521,1.1897,-0.604,-0.26514
523,1.39575,-0.48608,-0.07764
525,1.99994,-0.43579,0.05762
527,1.99994,1.13818,0.44751
529,1.99994,1.99994,1.99994
540,0.24805,-0.75415,-0.04761
542,0.82935,-0.50024,-0.10229
544,1.18896,0.10278,-0.24219
546,1.46289,0.31836,-0.57324
548,1.40967,0.09863,-0.74463
550,1.3479,-0.19141,-0.45093
552,1.27319,-0.30396,0.04932
554,1.08691,-0.39917,0.26587
556,1.04077,-0.32397,0.24854
558,0.98926,-0.20703,0.01758
560,0.90796,-0.1875,-0.12158
562,0.85327,-0.28467,-0.2168
564,0.87622,-0.49048,-0.33105
575,1.99994,1.31812,0.81421
577,1.99994,1.38062,1.02295
579,1.99994,1.41553,0.71826
581,1.99994,1.28296,0.25562
583,1.96338,1.11719,0.04395
585,1.70386,0.97705,-0.06079
587,1.50439,0.80786,-0.12378
589,1.35645,0.55615,-0.13281
591,1.23682,0.29053,-0.12793
593,1.13208,0.08496,-0.11597
595,1.01367,-0.05078,-0.09302
597,0.97461,-0.30005,-0.18848
599,0.95557,-0.49316,-0.21021
601,0.87231,-0.56763,-0.1377
612,0.71582,-0.35693,0.0127
614,0.72583,-0.32397,0.07178
616,0.75903,-0.28662,0.08838
618,0.79199,-0.26147,0.10669
620,0.82495,-0.23901,0.14429
622,0.83667,-0.22583,0.17896
624,0.84424,-0.22363,0.25659
626,0.85742,-0.22192,0.30786
628,0.82446,-0.21143,0.35767
630,0.77417,-0.20435,0.38745
632,0.7373,-0.19897,0.37769
634,0.68677,-0.21216,0.40234
636,0.65137,-0.22559,0.42261
647,0.40698,-0.21509,0.34253
649,0.36328,-0.18799,0.29761
651,0.32471,-0.16431,0.25903
653,0.28735,-0.1394,0.17969
655,0.25439,-0.11426,0.12891
657,0.2251,-0.09277,0.10449
659,0.20215,-0.073,0.09546
661,0.17285,-0.05469,0.1001
663,0.14771,-0.04761,0.11768
665,0.12036,-0.04126,0.09595
667,0.08521,-0.03882,0.08691
669,0.04687,-0.03955,0.09204
671,0.01465,-0.06982,0.06812
682,0.06323,-0.3501,-0.19849
684,0.16724,-0.4187,-0.32324
686,0.32056,-0.49414,-0.52734
688,0.35205,-0.51611,-0.54468
690,0.35156,-0.53638,-0.48853
692,0.375,-0.54834,-0.36011
694,0.36377,-0.49951,-0.19751
696,0.3103,-0.45557,-0.14941
698,0.28442,-0.50903,-0.18335
700,0.3396,-0.56299,-0.29712
702,0.45752,-0.59473,-0.44629
704,0.57153,-0.61255,-0.47192
715,1.99994,-0.38843,-0.3584
717,1.99994,1.99994,-2.0
719,1.99994,1.99994,-2.0
721,0.76416,-1.35278,1.99994
723,1.99994,-0.88647,1.99994
725,1.72217,0.31201,-2.0
727,0.58179,-0.29077,0.2666
729,0.75928,-0.70752,1.99994
731,0.92554,-0.09595,0.49219
733,0.56812,0.23242,-1.75195
735,0.69946,0.2749,-1.02124
737,1.36694,0.24243,0.01563
739,1.58032,-0.01221,0.52124
750,0.80078,-0.42773,0.09863
752,0.71509,-0.61792,0.12378
754,0.70703,-0.71875,0.19409
756,0.75684,-0.77246,0.11646
758,0.86914,-0.57959,0.21045
760,1.26831,0.15723,0.16504
762,1.99994,0.71265,-0.40234
764,1.99994,1.15576,-0.4458
766,1.99994,1.18188,0.61646
768,1.99994,1.1814,0.67432
770,1.99994,1.13696,0.21313
772,1.99994,1.07056,0.12476
774,1.97339,0.96606,0.10718
776,1.69946,0.79199,0.04297
778,1.47021,0.56006,0.05591
789,0.9292,-0.41479,-0.1062
791,0.85449,-0.47656,-0.15308
793,0.79126,-0.51929,-0.19434
795,0.72168,-0.49707,-0.24756
797,0.6626,-0.448,-0.24707
799,0.64307,-0.38281,-0.2439
801,0.62695,-0.35205,-0.27319
803,0.61255,-0.32373,-0.18262
805,0.62231,-0.31152,-0.12622
807,0.62256,-0.30737,-0.05078
809,0.64526,-0.30273,0.00049
811,0.66772,-0.29297,0.04297
822,0.8457,-0.22827,0.32715
824,0.81543,-0.22876,0.3623
826,0.77783,-0.21606,0.38745
828,0.69873,-0.22021,0.37793
830,0.6167,-0.21387,0.34521
832,0.54077,-0.20215,0.37622
834,0.4917,-0.20044,0.37988
836,0.4458,-0.17871,0.38965
838,0.4165,-0.15283,0.36792
840,0.3855,-0.11841,0.34961
842,0.36572,-0.08984,0.33691
844,0.33325,-0.04541,0.32275
846,0.30591,0.00439,0.3147
857,0.16699,0.09668,0.32007
859,0.14355,0.06934,0.30444
861,0.10425,0.04858,0.27026
863,0.0625,0.01025,0.23193
865,0.01367,-0.03174,0.18701
867,-0.04199,-0.08325,0.14819
869,-0.08911,-0.1377,0.10889
871,-0.15723,-0.19653,0.0957
873,-0.21729,-0.24194,0.05176
875,-0.27319,-0.2749,0.0332
877,-0.31494,-0.2937,-0.02148
879,-0.36646,-0.30835,-0.05884
881,-0.39795,-0.33813,-0.10229
892,1.36694,-0.91357,-1.44019
894,1.99994,-1.17627,-1.78906
896,1.83667,-1.01782,-0.89575
898,0.46167,-0.89038,-0.83447
900,0.02417,-0.78516,0.31494
902,0.23682,-0.7395,0.45093
904,0.68286,-0.73926,-0.07788
906,1.74634,-0.771,-0.78931
908,1.99994,-0.38745,-1.14429
910,1.99994,1.99994,-0.10645
912,1.99994,1.99994,1.99994
914,-0.12012,-2.0,0.45386
925,0.56372,-0.09814,-0.39526
927,0.88623,0.47925,-0.69653
929,1.01953,0.59253,-0.59033
931,0.90479,0.11377,-0.13818
933,0.95264,-0.15186,0.24438
935,0.93164,-0.43481,0.33081
937,0.98437,-0.55957,0.42212
939,1.10571,-0.53369,0.44385
941,1.12939,-0.52979,0.37158
943,1.05615,-0.58936,0.3125
945,0.96582,-0.70435,0.12012
947,0.81421,-0.68945,0.02222
949,0.62695,-0.08618,0.09912
960,1.99994,1.46948,0.85962
962,1.979,1.10229,0.44653
964,1.93799,0.82812,-0.02344
966,1.65161,0.62329,0.07983
968,1.43213,0.46729,0.1582
970,1.35156,0.28345,0.02148
972,1.27783,0.07935,-0.03101
974,1.18823,-0.11011,-0.04907
976,1.07227,-0.26343,-0.05273
978,0.93628,-0.37988,-0.1355
980,0.82007,-0.45117,-0.22485
982,0.72363,-0.49854,-0.25977
984,0.67065,-0.51758,-0.33936
986,0.62573,-0.49316,-0.39038
997,0.60352,-0.26489,-0.16406
999,0.60059,-0.24731,-0.08667
1001,0.63257,-0.22461,-0.05591
1003,0.6582,-0.21265,-0.01123
1005,0.66309,-0.20288,0.00952
1007,0.67847,-0.1958,0.03076
1009,0.69287,-0.19971,0.05469
1011,0.6936,-0.21265,0.12842
1013,0.71558,-0.20703,0.19751
1015,0.72827,-0.21582,0.25659
1017,0.75391,-0.22412,0.33032
1019,0.76343,-0.22144,0.36621
1030,0.5249,-0.17505,0.4502
1032,0.48218,-0.16064,0.42139
1034,0.45264,-0.13159,0.39209
1036,0.41479,-0.11523,0.37036
1038,0.39038,-0.08716,0.35181
1040,0.3623,-0.0791,0.31567
1042,0.33569,-0.06812,0.26782
1044,0.30103,-0.06152,0.23804
1046,0.27808,-0.05981,0.19214
1048,0.24829,-0.06763,0.16455
1050,0.20825,-0.07544,0.13672
1052,0.17896,-0.09863,0.11572
1054,0.13672,-0.11719,0.09155
1056,0.09058,-0.14526,0.06299
1067,-0.17944,-0.27051,-0.02026
1069,-0.2168,-0.30249,-0.04687
1071,-0.24316,-0.33789,-0.06812
1073,-0.25757,-0.37451,-0.10962
1075,-0.23901,-0.40698,-0.14648
1077,-0.12451,-0.4585,-0.24292
1079,0.30322,-0.5752,-0.48975
1081,1.28247,-0.79346,-1.00854
1083,1.99994,-0.96484,-1.16235
1085,1.5376,-0.8208,-0.47925
1087,0.6748,-0.53174,-0.13574
1098,1.99994,-0.34326,0.20288
1100,1.99994,-0.16089,0.2041
1102,1.99994,1.99994,0.33765
1104,1.99994,1.99994,1.99994
1106,1.99994,-0.13574,1.99994
1108,-0.10645,-0.13281,-2.0
1110,1.51147,0.37183,-0.09888
1112,0.74683,0.05688,1.99994
1114,0.26074,-0.34277,0.37964
1116,0.03491,-0.42285,-1.37085
1118,0.4939,0.11475,-1.36572
1120,0.88745,0.46899,-0.41675
1122,0.99756,0.42285,0.09766
1133,1.00537,-0.10718,0.29736
1135,1.02783,-0.10156,0.24194
1137,1.00732,-0.23145,0.36108
1139,0.93555,-0.32104,0.58936
1141,0.8147,-0.30908,0.61694
1143,0.66162,-0.20825,0.5481
1145,0.63428,0.02612,0.43262
1147,0.90405,0.34546,0.18213
1149,1.99994,0.69434,-0.64258
1151,1.99994,1.23071,-1.78613
1153,1.99994,1.06616,0.5498
1155,1.91235,0.72266,0.91821
1157,1.91309,0.63257,0.27563
1159,1.72974,0.63672,0.17944
1161,1.54248,0.61768,0.28198
1172,1.08618,-0.0813,-0.19336
1174,0.97632,-0.15332,-0.21265
1176,0.88086,-0.21191,-0.20288
1178,0.83887,-0.25879,-0.27905
1180,0.79004,-0.29907,-0.37061
1182,0.73706,-0.32642,-0.40137
1184,0.70459,-0.34448,-0.43335
1186,0.67603,-0.34375,-0.41943
1188,0.6665,-0.33447,-0.39795
1190,0.66895,-0.32788,-0.36255
1192,0.67993,-0.30615,-0.32739
1194,0.68872,-0.28198,-0.2915
1205,0.71606,-0.19116,-0.07813
1207,0.70752,-0.20435,-0.02124
1209,0.69067,-0.20703,0.07959
1211,0.70386,-0.22681,0.10303
1213,0.66699,-0.23828,0.146
1215,0.63354,-0.24365,0.1958
1217,0.59131,-0.23389,0.23804
1219,0.55908,-0.21533,0.25
1221,0.53442,-0.19214,0.28296
1223,0.49854,-0.18213,0.30444
1225,0.46509,-0.15576,0.31372
1227,0.43799,-0.12573,0.35132
1229,0.40942,-0.10059,0.38354
1240,0.26025,-0.00806,0.44092
1242,0.22485,-0.01465,0.43628
1244,0.18335,-0.03052,0.40967
1246,0.14453,-0.05029,0.38257
1248,0.10425,-0.07886,0.34888
1250,0.06079,-0.09766,0.32886
1252,0.01196,-0.11523,0.30542
1254,-0.03149,-0.15771,0.26123
1256,-0.07886,-0.19116,0.22168
1258,-0.12085,-0.22217,0.19678
1260,-0.1687,-0.26392,0.15479
1262,-0.20703,-0.31152,0.11987
1273,0.52368,-0.66748,-0.73291
1275,1.25757,-0.83569,-1.0918
1277,1.43408,-0.85571,-0.88965
1279,0.97144,-0.75391,-0.47363
1281,0.55566,-0.65356,-0.27393
1283,0.38696,-0.60791,-0.24097
1285,0.47119,-0.59375,-0.33423
1287,0.73486,-0.61133,-0.36719
1289,1.3479,-0.60254,-0.5896
1291,1.99994,-0.39429,-1.16602
1293,1.99994,1.99994,-2.0
1295,1.86499,1.99994,-0.21826
1306,1.02051,0.21973,1.99994
1308,-0.64746,-0.35425,0.93286
1310,1.1272,0.07056,-1.24292
1312,1.66016,0.61255,-1.25781
1314,0.98779,0.33423,0.31592
1316,0.77441,0.14282,0.20483
1318,0.82153,-0.09448,-0.57324
1320,0.82227,-0.24268,-0.52368
1322,0.87646,-0.34448,-0.04224
1324,1.00244,-0.44385,0.18213
1326,1.02441,-0.61548,0.33179
1328,1.01123,-0.77686,0.34424
1330,0.94995,-0.82275,0.20898
1332,0.84497,-0.71191,0.10791
1343,1.99994,1.25757,-0.61523
1345,1.99994,1.7561,-0.08252
1347,1.99994,1.41211,1.10303
1349,1.97632,1.01904,0.75391
